# Wavelength (nm)	Smoothed Intensity
299.383362	45.316306
299.552002	45.578382
299.720612	45.840368
299.889191	46.102169
300.057800	46.363690
300.226379	46.624835
300.394958	46.885509
300.563538	47.145614
300.732117	47.405057
300.900696	47.663741
301.069244	47.921570
301.237793	48.178450
301.406342	48.434283
301.574890	48.688975
301.743408	48.942430
301.911957	49.194552
302.080475	49.445246
302.248993	49.694415
302.417480	49.941965
302.585999	50.187799
302.754486	50.551777
302.922974	50.791812
303.091461	51.030056
303.259949	51.264823
303.428436	51.496371
303.596893	51.725423
303.765350	51.952525
303.933807	52.177982
304.102264	52.401296
304.270691	52.623372
304.439117	52.843125
304.607574	53.061035
304.776001	53.278186
304.944397	53.493436
305.112823	53.706404
305.281219	53.916206
305.449615	54.124500
305.618011	54.331802
305.786407	54.538006
305.954773	54.743159
306.123169	54.948537
306.291534	55.153038
306.459900	55.356411
306.628235	55.557441
306.796600	55.757002
306.964935	55.954882
307.133270	56.151183
307.301605	56.345947
307.469940	56.539959
307.638245	56.733271
307.806580	56.924025
307.974884	57.112628
308.143188	57.298572
308.311462	57.483870
308.479767	57.667756
308.648041	57.849618
308.816315	58.029124
308.984589	58.206048
309.152863	58.382944
309.321106	58.555627
309.489380	58.726573
309.657623	58.895326
309.825867	59.062173
309.994080	59.227515
310.162323	59.391816
310.330536	59.553945
310.498749	59.714912
310.666962	59.874690
310.835175	60.032129
311.003357	60.185916
311.171539	60.336866
311.339752	60.486649
311.507904	60.634868
311.676086	60.779651
311.844238	60.922383
312.012421	61.063671
312.180573	61.202799
312.348724	61.339041
312.516846	61.472090
312.684998	61.604392
312.853119	61.733284
313.021240	61.859614
313.189362	61.983058
313.357452	62.105415
313.525574	62.225564
313.693665	62.343574
313.861755	62.459768
314.029846	62.574165
314.197937	62.686117
314.365997	62.796252
314.534058	62.905719
314.702118	63.013755
314.870178	63.121059
315.038239	63.226784
315.206268	63.331958
315.374298	63.436513
315.542328	63.541042
315.710358	63.644571
315.878357	63.745780
316.046387	63.847054
316.214386	63.948261
316.382385	64.049667
316.550385	64.151016
316.718353	64.251690
316.886353	64.351875
317.054321	64.452884
317.222290	64.553351
317.390259	64.651303
317.558197	64.749306
317.726135	64.846902
317.894104	64.944871
318.062012	65.041671
318.229950	65.135019
318.397888	65.228280
318.565796	65.319947
318.733704	65.409560
318.901611	65.496774
319.069519	65.583797
319.237396	65.670777
319.405304	65.756192
319.573181	65.840668
319.741058	65.923051
319.908905	66.004189
320.076782	66.083120
320.244629	66.160705
320.412476	66.236850
320.580322	66.312217
320.748169	66.387809
320.915985	66.462921
321.083801	66.537858
321.251617	66.610941
321.419434	66.683374
321.587250	66.756566
321.755035	66.829780
321.922821	66.902199
322.090607	66.975928
322.258392	67.049080
322.426178	67.122550
322.593933	67.197373
322.761719	67.271989
322.929474	67.346545
323.097198	67.421478
323.264954	67.495861
323.432678	67.570642
323.600403	67.644923
323.768127	67.718081
323.935852	67.789670
324.103577	67.859998
324.271271	67.928369
324.438965	67.995809
324.606659	68.062063
324.774353	68.126688
324.942047	68.190924
325.109711	68.252866
325.277374	68.313231
325.445038	68.371198
325.612701	68.428423
325.780334	68.483413
325.947968	68.536377
326.115631	68.587156
326.283234	68.636176
326.450867	68.684469
326.618500	68.731560
326.786102	68.777546
326.953705	68.822974
327.121307	68.868927
327.288879	68.914235
327.456482	68.959754
327.624054	69.005644
327.791626	69.051639
327.959198	69.098872
328.126770	69.147793
328.294312	69.195893
328.461853	69.245436
328.629395	69.297862
328.796936	69.349494
328.964478	69.401771
329.131989	69.454584
329.299500	69.507198
329.467010	69.560986
329.634521	69.615515
329.802002	69.670724
329.969513	69.726362
330.136993	69.782585
330.304474	69.839011
330.471954	69.895064
330.639404	69.951708
330.806854	70.009562
330.974335	70.067701
331.141754	70.125748
331.309204	70.183283
331.476654	70.239472
331.644073	70.295569
331.811493	70.350253
331.978912	70.402517
332.146332	70.454341
332.313721	70.505352
332.481110	70.555541
332.648499	70.605216
332.815887	70.654011
332.983276	70.701022
333.150635	70.746173
333.317993	70.791461
333.485352	70.835500
333.652710	70.878693
333.820068	70.920162
333.987396	70.961467
334.154724	71.000067
334.322052	71.037925
334.489380	71.073932
334.656708	71.108195
334.824005	71.141675
334.991302	71.174494
335.158600	71.206865
335.325897	71.238311
335.493164	71.269929
335.660431	71.301116
335.827728	71.332903
335.994965	71.363739
336.162231	71.394917
336.329498	71.426648
336.496735	71.457388
336.663971	71.488253
336.831207	71.517987
336.998413	71.546878
337.165649	71.576344
337.332855	71.605499
337.500061	71.635075
337.667267	71.664721
337.834442	71.694304
338.001648	71.723181
338.168823	71.751323
338.335999	71.779414
338.503174	71.808276
338.670319	71.838165
338.837494	71.868347
339.004639	71.899035
339.171783	71.928865
339.338898	71.958544
339.506042	71.988086
339.673157	72.017592
339.840271	72.047771
340.007385	72.076054
340.174500	72.105160
340.341583	72.135479
340.508667	72.165582
340.675751	72.194802
340.842834	72.224445
341.009918	72.253476
341.176971	72.282724
341.344055	72.313095
341.511108	72.344248
341.678131	72.375805
341.845184	72.407249
342.012207	72.437742
342.179230	72.467945
342.346252	72.497816
342.513275	72.527044
342.680298	72.556712
342.847290	72.585311
343.014282	72.613270
343.181274	72.640099
343.348267	72.667054
343.515228	72.694474
343.682190	72.721377
343.849152	72.747809
344.016113	72.773162
344.183075	72.797639
344.350006	72.820979
344.516968	72.843971
344.683899	72.866563
344.850800	72.889379
345.017731	72.911768
345.184631	72.931829
345.351532	72.951026
345.518433	72.968790
345.685333	72.986063
345.852234	73.004100
346.019104	73.021610
346.185974	73.038442
346.352844	73.054841
346.519714	73.071342
346.686554	73.087516
346.853424	73.102635
347.020264	73.115876
347.187073	73.129115
347.353912	73.142387
347.520721	73.155417
347.687561	73.169112
347.854370	73.183028
348.021179	73.197108
348.187958	73.210502
348.354736	73.223073
348.521545	73.236229
348.688324	73.250270
348.855072	73.265552
349.021851	73.280781
349.188599	73.295620
349.355347	73.310835
349.522095	73.327165
349.688843	73.343213
349.855560	73.360536
350.022308	73.378160
350.189026	73.395701
350.355743	73.414122
350.522430	73.431628
350.689148	73.450043
350.855835	73.468181
351.022522	73.485716
351.189209	73.503170
351.355865	73.520658
351.522522	73.537747
351.689209	73.555008
351.855865	73.573500
352.022491	73.591797
352.189148	73.611078
352.355774	73.630605
352.522400	73.650676
352.689026	73.670344
352.855652	73.689453
353.022247	73.709241
353.188843	73.728582
353.355438	73.749031
353.522034	73.769712
353.688629	73.790692
353.855194	73.811817
354.021759	73.832808
354.188324	73.854024
354.354889	73.874938
354.521454	73.895631
354.687988	73.913732
354.854523	73.931348
355.021057	73.948925
355.187592	73.965862
355.354095	73.981712
355.520599	73.995622
355.687134	74.008236
355.853607	74.019479
356.020111	74.030269
356.186584	74.040375
356.353088	74.050186
356.519562	74.058070
356.686005	74.063805
356.852478	74.069345
357.018921	74.074094
357.185364	74.078844
357.351807	74.082401
357.518250	74.085525
357.684692	74.089497
357.851105	74.093783
358.017517	74.099781
358.183929	74.106834
358.350311	74.114028
358.516724	74.121773
358.683105	74.131713
358.849487	74.142857
359.015869	74.154963
359.182220	74.167044
359.348602	74.180082
359.514954	74.194903
359.681305	74.210244
359.847656	74.227056
360.013977	74.245387
360.180298	74.263153
360.346649	74.281846
360.512939	74.300143
360.679260	74.318596
360.845581	74.336835
361.011871	74.354972
361.178162	74.372204
361.344452	74.390538
361.510712	74.409089
361.677002	74.427003
361.843262	74.443196
362.009521	74.458184
362.175751	74.472434
362.342010	74.486788
362.508240	74.501807
362.674469	74.515951
362.840698	74.527692
363.006927	74.538526
363.173126	74.549451
363.339325	74.560158
363.505524	74.571166
363.671722	74.580520
363.837921	74.589770
364.004089	74.599849
364.170258	74.609916
364.336426	74.620118
364.502594	74.630986
364.668762	74.640685
364.834900	74.649322
365.001038	74.658117
365.167175	74.668108
365.333282	74.677592
365.499420	74.687175
365.665527	74.696675
365.831635	74.705534
365.997742	74.714332
366.163818	74.724007
366.329926	74.733218
366.496002	74.741974
366.662079	74.748602
366.828156	74.755881
366.994202	74.763976
367.160248	74.772599
367.326294	74.781472
367.492340	74.792303
367.658386	74.803321
367.824402	74.814519
367.990448	74.825832
368.156464	74.836706
368.322449	74.847907
368.488464	74.860075
368.654449	74.872555
368.820435	74.884159
368.986420	74.895507
369.152405	74.906808
369.318390	74.917768
369.484344	74.929293
369.650299	74.941304
369.816254	74.953217
369.982178	74.966227
370.148132	74.978119
370.314056	74.990372
370.479980	75.003258
370.645905	75.015776
370.811798	75.026812
370.977692	75.037285
371.143616	75.045996
371.309479	75.053840
371.475372	75.062453
371.641266	75.070620
371.807129	75.076581
371.972992	75.081749
372.138855	75.086418
372.304688	75.090419
372.470551	75.093931
372.636383	75.097768
372.802216	75.100700
372.968018	75.104100
373.133850	75.107585
373.299652	75.111731
373.465454	75.116332
373.631256	75.119946
373.797058	75.123675
373.962830	75.126689
374.128601	75.128698
374.294373	75.130811
374.460144	75.133934
374.625916	75.138314
374.791656	75.142510
374.957397	75.147035
375.123138	75.151390
375.288879	75.156902
375.454590	75.164221
375.620331	75.172078
375.786041	75.180680
375.951721	75.189424
376.117432	75.197893
376.283112	75.204849
376.448822	75.212365
376.614471	75.219463
376.780151	75.226025
376.945831	75.233504
377.111481	75.239425
377.277130	75.245176
377.442780	75.251555
377.608429	75.256930
377.774048	75.261989
377.939667	75.266731
378.105286	75.271051
378.270905	75.273701
378.436523	75.276240
378.602112	75.277755
378.767700	75.277892
378.933289	75.278048
379.098877	75.278179
379.264435	75.278233
379.429993	75.278011
379.595551	75.278147
379.761108	75.276532
379.926666	75.273906
380.092194	75.271219
380.257721	75.267853
380.423248	75.264100
380.588776	75.262554
380.754272	75.261335
380.919800	75.260949
381.085297	75.261131
381.250793	75.260981
381.416260	75.262413
381.581757	75.265760
381.747223	75.270629
381.912689	75.276335
382.078125	75.282909
382.243591	75.289069
382.409027	75.295672
382.574463	75.301697
382.739899	75.308945
382.905334	75.318585
383.070740	75.329273
383.236176	75.341744
383.401581	75.355576
383.566956	75.369983
383.732361	75.385983
383.897736	75.400973
384.063110	75.416215
384.228485	75.431687
384.393860	75.447638
384.559204	75.462668
384.724579	75.475625
384.889923	75.489155
385.055237	75.501618
385.220581	75.514038
385.385895	75.526191
385.551239	75.537175
385.716522	75.547089
385.881836	75.556918
386.047150	75.565782
386.212433	75.571390
386.377716	75.575720
386.542999	75.578797
386.708252	75.580412
386.873535	75.581459
387.038788	75.582382
387.204041	75.582450
387.369293	75.583504
387.534515	75.583713
387.699738	75.583623
387.864960	75.584127
388.030182	75.583988
388.195404	75.583063
388.360596	75.582842
388.525787	75.582196
388.690979	75.580512
388.856171	75.580613
389.021362	75.580511
389.186523	75.582765
389.351685	75.586077
389.516846	75.590283
389.682007	75.596774
389.847137	75.603149
390.012268	75.611158
390.177399	75.619267
390.342529	75.627571
390.507629	75.635736
390.672760	75.643078
390.837860	75.650461
391.002960	75.656499
391.168030	75.663246
391.333130	75.671064
391.498199	75.678494
391.663269	75.686134
391.828339	75.693183
391.993378	75.700459
392.158447	75.707257
392.323486	75.714765
392.488525	75.719524
392.653534	75.722169
392.818573	75.725539
392.983582	75.729385
393.148590	75.734055
393.313599	75.738515
393.478577	75.744132
393.643585	75.750125
393.808563	75.756058
393.973541	75.759918
394.138489	75.763947
394.303467	75.767618
394.468414	75.770656
394.633362	75.773836
394.798309	75.776949
394.963226	75.779663
395.128174	75.782683
395.293091	75.787656
395.458008	75.792822
395.622894	75.798446
395.787811	75.804101
395.952698	75.810611
396.117584	75.817360
396.282471	75.821693
396.447327	75.826588
396.612213	75.829515
396.777069	75.831738
396.941925	75.832601
397.106750	75.834353
397.271606	75.837480
397.436432	75.841186
397.601257	75.846233
397.766083	75.851283
397.930878	75.857610
398.095703	75.864359
398.260498	75.871227
398.425293	75.877809
398.590057	75.883624
398.754852	75.890069
398.919617	75.895043
399.084381	75.901133
399.249146	75.908068
399.413879	75.915711
399.578644	75.923463
399.743378	75.931178
399.908112	75.939281
400.072815	75.947201
400.237549	75.955531
400.402252	75.963467
400.566956	75.970489
400.731659	75.976007
400.896332	75.982330
401.061035	75.989219
401.225708	75.995089
401.390381	76.000441
401.555023	76.005363
401.719696	76.010729
401.884338	76.014095
402.048981	76.017148
402.213623	76.020383
402.378235	76.023101
402.542847	76.025071
402.707489	76.025444
402.872070	76.026479
403.036682	76.025984
403.201294	76.026858
403.365875	76.027336
403.530457	76.028425
403.695007	76.030198
403.859589	76.033011
404.024139	76.036568
404.188690	76.039620
404.353241	76.041824
404.517792	76.043033
404.682312	76.043042
404.846832	76.043868
405.011353	76.045149
405.175873	76.047075
405.340393	76.047474
405.504883	76.049716
405.669373	76.051719
405.833862	76.055163
405.998322	76.058567
406.162811	76.062861
406.327271	76.067142
406.491730	76.070770
406.656189	76.075123
406.820618	76.077003
406.985046	76.076439
407.149475	76.076423
407.313904	76.077463
407.478333	76.077502
407.642731	76.078024
407.807129	76.078341
407.971527	76.080852
408.135925	76.082652
408.300293	76.083487
408.464661	76.085442
408.629028	76.087330
408.793396	76.087744
408.957764	76.087600
409.122101	76.086195
409.286438	76.085711
409.450775	76.083817
409.615112	76.083771
409.779419	76.083166
409.943726	76.084068
410.108032	76.086496
410.272339	76.089238
410.436646	76.091435
410.600922	76.092326
410.765198	76.093584
410.929474	76.095898
411.093750	76.100097
411.257996	76.105207
411.422241	76.109522
411.586487	76.115731
411.750732	76.121920
411.914948	76.128500
412.079193	76.134093
412.243408	76.140508
412.407623	76.146882
412.571808	76.153154
412.735992	76.159373
412.900208	76.165295
413.064392	76.172538
413.228546	76.176819
413.392731	76.182189
413.556885	76.189502
413.721039	76.197027
413.885193	76.204852
414.049316	76.212842
414.213470	76.218797
414.377594	76.225545
414.541718	76.230081
414.705811	76.235471
414.869934	76.241024
415.034027	76.247654
415.198120	76.254814
415.362213	76.264066
415.526276	76.273354
415.690338	76.284284
415.854431	76.294160
416.018463	76.305775
416.182526	76.316683
416.346558	76.327163
416.510620	76.336706
416.674622	76.344972
416.838654	76.354099
417.002686	76.362227
417.166687	76.371364
417.330688	76.381069
417.494690	76.392069
417.658661	76.401824
417.822662	76.411249
417.986633	76.420301
418.150604	76.426717
418.314545	76.431802
418.478516	76.437622
418.642456	76.443402
418.806396	76.449388
418.970337	76.454752
419.134247	76.461338
419.298187	76.468433
419.462097	76.474948
419.625977	76.479234
419.789886	76.485369
419.953766	76.492993
420.117676	76.500076
420.281555	76.507800
420.445404	76.515973
420.609283	76.524515
420.773132	76.534315
420.936981	76.545216
421.100830	76.559192
421.264648	76.574412
421.428497	76.590786
421.592316	76.605417
421.756134	76.619537
421.919922	76.631544
422.083740	76.643374
422.247528	76.653070
422.411316	76.661447
422.575104	76.667550
422.738861	76.673145
422.902618	76.680752
423.066406	76.688356
423.230133	76.695186
423.393890	76.700166
423.557617	76.705387
423.721344	76.709698
423.885071	76.713888
424.048798	76.716792
424.212524	76.718058
424.376221	76.717707
424.539917	76.717123
424.703583	76.716939
424.867279	76.717342
425.030945	76.717992
425.194611	76.720150
425.358276	76.723661
425.521942	76.729311
425.685577	76.735844
425.849213	76.742058
426.012848	76.748861
426.176483	76.756113
426.340118	76.763616
426.503723	76.770468
426.667328	76.778738
426.830933	76.787368
426.994507	76.796871
427.158112	76.806108
427.321686	76.815218
427.485229	76.824243
427.648804	76.831339
427.812378	76.838460
427.975922	76.845437
428.139465	76.853736
428.302979	76.860700
428.466522	76.866661
428.630035	76.871847
428.793549	76.877028
428.957062	76.884083
429.120575	76.890417
429.284058	76.898512
429.447540	76.905560
429.611023	76.913327
429.774506	76.922060
429.937958	76.930857
430.101410	76.941872
430.264862	76.952841
430.428314	76.962464
430.591736	76.972278
430.755188	76.982517
430.918610	76.993951
431.082031	77.005351
431.245422	77.016912
431.408813	77.030064
431.572235	77.044493
431.735596	77.060314
431.898987	77.076187
432.062378	77.090802
432.225739	77.102714
432.389099	77.116584
432.552429	77.129536
432.715790	77.142956
432.879120	77.155597
433.042450	77.167691
433.205780	77.178905
433.369110	77.187256
433.532410	77.193055
433.695709	77.200094
433.859009	77.207274
434.022308	77.214508
434.185577	77.222549
434.348846	77.230239
434.512115	77.236427
434.675385	77.240147
434.838654	77.243909
435.001892	77.248686
435.165131	77.253677
435.328369	77.259034
435.491577	77.263552
435.654816	77.269940
435.818024	77.275688
435.981232	77.281088
436.144409	77.286581
436.307617	77.291490
436.470795	77.296051
436.633972	77.298604
436.797119	77.301534
436.960297	77.303924
437.123444	77.305495
437.286591	77.306806
437.449738	77.308146
437.612885	77.309458
437.776001	77.311669
437.939117	77.314346
438.102234	77.316731
438.265350	77.318051
438.428436	77.319017
438.591522	77.320721
438.754608	77.324149
438.917694	77.325036
439.080750	77.326059
439.243835	77.327218
439.406891	77.329002
439.569916	77.331328
439.732971	77.334379
439.895996	77.339211
440.059021	77.346095
440.222046	77.353587
440.385071	77.362239
440.548065	77.371761
440.711060	77.380782
440.874054	77.389528
441.037048	77.398737
441.200012	77.408870
441.363007	77.419863
441.525970	77.431012
441.688904	77.441240
441.851868	77.451544
442.014801	77.462336
442.177734	77.473281
442.340668	77.483072
442.503601	77.491948
442.666504	77.498487
442.829407	77.504949
442.992310	77.511508
443.155212	77.517586
443.318085	77.523190
443.480957	77.528849
443.643829	77.533432
443.806702	77.537078
443.969543	77.540087
444.132416	77.543482
444.295258	77.546572
444.458069	77.545501
444.620911	77.544714
444.783722	77.544454
444.946533	77.544847
445.109344	77.545666
445.272156	77.546565
445.434937	77.549243
445.597717	77.553693
445.760498	77.559806
445.923279	77.567811
446.086060	77.576957
446.248810	77.586461
446.411560	77.597587
446.574280	77.609345
446.737030	77.621235
446.899750	77.633377
447.062469	77.645527
447.225189	77.657345
447.387909	77.668886
447.550598	77.679749
447.713287	77.695133
447.875977	77.710697
448.038666	77.726937
448.201324	77.743909
448.363983	77.759801
448.526642	77.775978
448.689301	77.790062
448.851929	77.803212
449.014587	77.815930
449.177216	77.828431
449.339813	77.840058
449.502441	77.849164
449.665039	77.856907
449.827637	77.861802
449.990234	77.864399
450.152832	77.865718
450.315399	77.866429
450.477966	77.865838
450.640533	77.864048
450.803101	77.861661
450.965637	77.860347
451.128174	77.857185
451.290710	77.851572
451.453247	77.844500
451.615784	77.836445
451.778290	77.827584
451.940796	77.818277
452.103302	77.807705
452.265778	77.797328
452.428253	77.786622
452.590729	77.775375
452.753204	77.765634
452.915680	77.756985
453.078125	77.750136
453.240570	77.744538
453.403015	77.740519
453.565460	77.737510
453.727875	77.737121
453.890289	77.738149
454.052704	77.743167
454.215118	77.748318
454.377533	77.754846
454.539917	77.761492
454.702301	77.769966
454.864685	77.781909
455.027039	77.794288
455.189392	77.808405
455.351746	77.823482
455.514099	77.837368
455.676453	77.851442
455.838776	77.864534
456.001099	77.880055
456.163422	77.897028
456.325745	77.914451
456.488037	77.932822
456.650330	77.951512
456.812622	77.970342
456.974915	77.989340
457.137177	78.007623
457.299469	78.023376
457.461731	78.036771
457.623962	78.049177
457.786224	78.060542
457.948456	78.069746
458.110687	78.076790
458.272919	78.083228
458.435150	78.089344
458.597351	78.096413
458.759552	78.104117
458.921753	78.111347
459.083923	78.120375
459.246124	78.126527
459.408295	78.129352
459.570465	78.130981
459.732635	78.132029
459.894775	78.131842
460.056915	78.130128
460.219055	78.127904
460.381195	78.126340
460.543304	78.124716
460.705444	78.122173
460.867554	78.119769
461.029633	78.118975
461.191742	78.120038
461.353821	78.119895
461.515900	78.116937
461.677979	78.111578
461.840057	78.106114
462.002106	78.101916
462.164154	78.098980
462.326202	78.097425
462.488251	78.096367
462.650269	78.094681
462.812286	78.093956
462.974304	78.093620
463.136322	78.094367
463.298309	78.095532
463.460297	78.096935
463.622284	78.098105
463.784271	78.097584
463.946259	78.096856
464.108215	78.096121
464.270172	78.095608
464.432129	78.093883
464.594055	78.093751
464.755981	78.096039
464.917908	78.100599
465.079834	78.105458
465.241760	78.107972
465.403656	78.110923
465.565552	78.111354
465.727448	78.113424
465.889343	78.119403
466.051208	78.124833
466.213074	78.130923
466.374939	78.136366
466.536804	78.143965
466.698639	78.151950
466.860504	78.159689
467.022308	78.170733
467.184143	78.182808
467.345978	78.194975
467.507782	78.205235
467.669586	78.214699
467.831390	78.222451
467.993164	78.230274
468.154938	78.238631
468.316711	78.245791
468.478485	78.254066
468.640259	78.260518
468.802002	78.266928
468.963745	78.271919
469.125488	78.276309
469.287231	78.280704
469.448944	78.285259
469.610657	78.288874
469.772369	78.290191
469.934082	78.289664
470.095764	78.288822
470.257446	78.286938
470.419128	78.285706
470.580811	78.284157
470.742462	78.285693
470.904144	78.290136
471.065796	78.296427
471.227417	78.303842
471.389069	78.312269
471.550690	78.321841
471.712311	78.333403
471.873932	78.344457
472.035522	78.357706
472.197144	78.371688
472.358734	78.385219
472.520294	78.400673
472.681885	78.415172
472.843445	78.430294
473.005005	78.446085
473.166565	78.461434
473.328125	78.476971
473.489655	78.489266
473.651184	78.500286
473.812714	78.510496
473.974243	78.521166
474.135742	78.529706
474.297241	78.536951
474.458740	78.542456
474.620239	78.545962
474.781738	78.549278
474.943207	78.550122
475.104675	78.551561
475.266113	78.549533
475.427582	78.545986
475.589020	78.540070
475.750458	78.531896
475.911896	78.522862
476.073303	78.514034
476.234741	78.505029
476.396149	78.498041
476.557526	78.490599
476.718933	78.485190
476.880310	78.481737
477.041687	78.479075
477.203064	78.474014
477.364441	78.469018
477.525787	78.463664
477.687134	78.459634
477.848480	78.453569
478.009827	78.447690
478.171143	78.442496
478.332458	78.438990
478.493774	78.437119
478.655090	78.436539
478.816376	78.436489
478.977661	78.435656
479.138947	78.435405
479.300232	78.437306
479.461487	78.438136
479.622772	78.439750
479.784027	78.442612
479.945251	78.446266
480.106506	78.449740
480.267731	78.454255
480.428955	78.458879
480.590179	78.463643
480.751373	78.467988
480.912567	78.472873
481.073761	78.478918
481.234955	78.483776
481.396149	78.488001
481.557312	78.491681
481.718475	78.496927
481.879639	78.502084
482.040802	78.509159
482.201935	78.518178
482.363068	78.526413
482.524200	78.532293
482.685303	78.539437
482.846436	78.543765
483.007538	78.549048
483.168640	78.554404
483.329712	78.557452
483.490814	78.559810
483.651886	78.563244
483.812958	78.566961
483.973999	78.572988
484.135071	78.577697
484.296112	78.585033
484.457153	78.593479
484.618195	78.602292
484.779205	78.610693
484.940216	78.617981
485.101227	78.624664
485.262238	78.629982
485.423218	78.635916
485.584229	78.641586
485.745209	78.645715
485.906158	78.650515
486.067139	78.655408
486.228088	78.659596
486.389038	78.664772
486.549988	78.669708
486.710907	78.674059
486.871857	78.677115
487.032776	78.679519
487.193665	78.680039
487.354584	78.680528
487.515472	78.680231
487.676361	78.679506
487.837250	78.679326
487.998138	78.677998
488.158997	78.675489
488.319855	78.673174
488.480713	78.671534
488.641541	78.669132
488.802399	78.667659
488.963226	78.667530
489.124054	78.668155
489.284851	78.672627
489.445679	78.676523
489.606476	78.679233
489.767273	78.684873
489.928040	78.692812
490.088837	78.702246
490.249603	78.712266
490.410370	78.722870
490.571106	78.734732
490.731873	78.745438
490.892609	78.755876
491.053345	78.765237
491.214081	78.774317
491.374786	78.784798
491.535492	78.794883
491.696198	78.804560
491.856903	78.813610
492.017578	78.823203
492.178284	78.834053
492.338959	78.842351
492.499603	78.848261
492.660278	78.853655
492.820923	78.857369
492.981567	78.859999
493.142212	78.859926
493.302826	78.858492
493.463440	78.854237
493.624054	78.850844
493.784668	78.846438
493.945282	78.840319
494.105865	78.833373
494.266449	78.826605
494.427032	78.821708
494.587585	78.816971
494.748169	78.812180
494.908722	78.806282
495.069244	78.800981
495.229797	78.795555
495.390320	78.792001
495.550842	78.788905
495.711365	78.785071
495.871887	78.781728
496.032379	78.779361
496.192871	78.777228
496.353363	78.775185
496.513855	78.771029
496.674316	78.769396
496.834778	78.765760
496.995239	78.762771
497.155670	78.763204
497.316132	78.764642
497.476562	78.766139
497.636993	78.768339
497.797394	78.770416
497.957825	78.774313
498.118225	78.780879
498.278625	78.786247
498.438995	78.792044
498.599396	78.795618
498.759766	78.801133
498.920135	78.807633
499.080475	78.814584
499.240845	78.822894
499.401184	78.831627
499.561523	78.841349
499.721832	78.852988
499.882172	78.866211
500.042480	78.881471
500.202789	78.895848
500.363098	78.909864
500.523376	78.924216
500.683655	78.938598
500.843933	78.949964
501.004211	78.959979
501.164459	78.969295
501.324707	78.977093
501.484955	78.984718
501.645203	78.990464
501.805420	78.994768
501.965668	78.998502
502.125885	79.001383
502.286072	79.002347
502.446289	79.003068
502.606476	79.000294
502.766663	78.997556
502.926849	78.996727
503.087006	78.994402
503.247162	78.992558
503.407318	78.990837
503.567474	78.986880
503.727600	78.982786
503.887756	78.979277
504.047882	78.977868
504.207977	78.976129
504.368103	78.972739
504.528198	78.968812
504.688293	78.966638
504.848389	78.965451
505.008453	78.966536
505.168549	78.967758
505.328613	78.969312
505.488647	78.971558
505.648712	78.973804
505.808746	78.977330
505.968781	78.980015
506.128815	78.981846
506.288818	78.984333
506.448853	78.985180
506.608856	78.984471
506.768829	78.983299
506.928833	78.981668
507.088806	78.978311
507.248779	78.974128
507.408752	78.970261
507.568695	78.967745
507.728668	78.967109
507.888611	78.964475
508.048523	78.963458
508.208466	78.961903
508.368378	78.958077
508.528290	78.954604
508.688202	78.952475
508.848114	78.951410
509.007996	78.952608
509.167877	78.952878
509.327759	78.951323
509.487610	78.950279
509.647461	78.948394
509.807312	78.948662
509.967163	78.950822
510.127014	78.952656
510.286835	78.956204
510.446655	78.959112
510.606476	78.964325
510.766266	78.970967
510.926086	78.975339
511.085876	78.980321
511.245667	78.984305
511.405426	78.987621
511.565186	78.991562
511.724945	78.994877
511.884705	78.999577
512.044434	79.001585
512.204163	79.002978
512.363953	79.005783
512.523621	79.007697
512.683350	79.007944
512.843079	79.008689
513.002747	79.010145
513.162476	79.011172
513.322144	79.012920
513.481812	79.014131
513.641479	79.018399
513.801147	79.024039
513.960815	79.027805
514.120422	79.032085
514.280090	79.039049
514.439697	79.046154
514.599365	79.053619
514.758972	79.061912
514.918579	79.070250
515.078186	79.076577
515.237732	79.082877
515.397339	79.088439
515.556946	79.093325
515.716492	79.102009
515.876038	79.110364
516.035583	79.121769
516.195129	79.132112
516.354675	79.142927
516.514221	79.153210
516.673767	79.163136
516.833252	79.170378
516.992798	79.175311
517.152283	79.179650
517.311768	79.185571
517.471252	79.188898
517.630737	79.190600
517.790222	79.190592
517.949646	79.190236
518.109131	79.190167
518.268555	79.188728
518.427979	79.188427
518.587463	79.188099
518.746887	79.188557
518.906250	79.188950
519.065674	79.191257
519.225098	79.191336
519.384460	79.190212
519.543884	79.188779
519.703247	79.188316
519.862610	79.191003
520.021973	79.192418
520.181335	79.192100
520.340698	79.191747
520.500000	79.190793
520.659363	79.190336
520.818665	79.191427
520.977966	79.191730
521.137329	79.192419
521.296631	79.194480
521.455872	79.198280
521.615173	79.200663
521.774475	79.204019
521.933716	79.211059
522.093018	79.217142
522.252258	79.224247
522.411499	79.230265
522.570740	79.238855
522.729980	79.247858
522.889221	79.258157
523.048401	79.266665
523.207642	79.278148
523.366821	79.288130
523.526001	79.299582
523.685181	79.308949
523.844360	79.318562
524.003540	79.327299
524.162720	79.337711
524.321838	79.347336
524.481018	79.356189
524.640137	79.366668
524.799316	79.377256
524.958435	79.385779
525.117554	79.389485
525.276611	79.393097
525.435730	79.392820
525.594849	79.391551
525.753906	79.387146
525.912964	79.380261
526.072083	79.367701
526.231140	79.351767
526.390198	79.334117
526.549255	79.316942
526.708252	79.299374
526.867310	79.281361
527.026306	79.262540
527.185364	79.241733
527.344360	79.220734
527.503357	79.200125
527.662354	79.179035
527.821350	79.155983
527.980286	79.134785
528.139282	79.116639
528.298218	79.099545
528.457214	79.083370
528.616150	79.069394
528.775085	79.059018
528.934021	79.049474
529.092896	79.041427
529.251831	79.035924
529.410767	79.033524
529.569641	79.031470
529.728516	79.032408
529.887451	79.033621
530.046326	79.036254
530.205200	79.039142
530.364014	79.046001
530.522888	79.054480
530.681702	79.065616
530.840576	79.077299
530.999390	79.086918
531.158203	79.095862
531.317017	79.105187
531.475830	79.116306
531.634644	79.123805
531.793457	79.129926
531.952209	79.135705
532.110962	79.140491
532.269775	79.147761
532.428528	79.158840
532.587280	79.169054
532.746033	79.180880
532.904724	79.194836
533.063477	79.207971
533.222229	79.223183
533.380920	79.238605
533.539612	79.252397
533.698303	79.265846
533.856995	79.276801
534.015686	79.289104
534.174377	79.303079
534.333008	79.319162
534.491699	79.334690
534.650330	79.349441
534.808960	79.366902
534.967651	79.384673
535.126221	79.401849
535.284851	79.422848
535.443481	79.443483
535.602112	79.460424
535.760681	79.477748
535.919250	79.493609
536.077881	79.507225
536.236450	79.519971
536.395020	79.531406
536.553528	79.542321
536.712097	79.552267
536.870667	79.563508
537.029175	79.575154
537.187683	79.583819
537.346191	79.593096
537.504700	79.601807
537.663208	79.608200
537.821716	79.613655
537.980225	79.618368
538.138672	79.626549
538.297180	79.631647
538.455627	79.638464
538.614075	79.643218
538.772522	79.646694
538.930969	79.651281
539.089417	79.654029
539.247803	79.655105
539.406250	79.659535
539.564636	79.663820
539.723083	79.666972
539.881470	79.670542
540.039856	79.672967
540.198242	79.676513
540.356567	79.679016
540.514954	79.683134
540.673279	79.687268
540.831665	79.689661
540.989990	79.692346
541.148315	79.695348
541.306641	79.697967
541.464966	79.702912
541.623291	79.702928
541.781555	79.701682
541.939880	79.704531
542.098145	79.705745
542.256409	79.707096
542.414673	79.708660
542.572937	79.706191
542.731201	79.700989
542.889465	79.699904
543.047668	79.699225
543.205933	79.696525
543.364136	79.691147
543.522339	79.688372
543.680542	79.682544
543.838745	79.673963
543.996948	79.670030
544.155090	79.665874
544.313293	79.662131
544.471436	79.655710
544.629639	79.649874
544.787781	79.645349
544.945923	79.641260
545.104065	79.636882
545.262146	79.632665
545.420288	79.634573
545.578369	79.639743
545.736511	79.644025
545.894592	79.650045
546.052673	79.654130
546.210754	79.662127
546.368835	79.669804
546.526917	79.680501
546.684937	79.693338
546.843018	79.707078
547.001038	79.723543
547.159058	79.740107
547.317078	79.757043
547.475098	79.774085
547.633118	79.789764
547.791138	79.804133
547.949097	79.818907
548.107117	79.833539
548.265076	79.845082
548.423035	79.854928
548.580994	79.859991
548.738953	79.861312
548.896912	79.866297
549.054810	79.873033
549.212769	79.876192
549.370667	79.872570
549.528625	79.868248
549.686523	79.863672
549.844421	79.856455
550.002319	79.849228
550.160156	79.843627
550.318054	79.829834
550.475891	79.814862
550.633789	79.800650
550.791626	79.790130
550.949463	79.781837
551.107300	79.773844
551.265137	79.767465
551.422974	79.762707
551.580750	79.762578
551.738586	79.762728
551.896362	79.760035
552.054138	79.762223
552.211914	79.768259
552.369690	79.782532
552.527466	79.795256
552.685242	79.814721
552.842957	79.835165
553.000671	79.855323
553.158447	79.877115
553.316162	79.895547
553.473877	79.919515
553.631592	79.945334
553.789307	79.969907
553.946960	79.991682
554.104675	80.015476
554.262329	80.035786
554.419983	80.057879
554.577637	80.082142
554.735291	80.100763
554.892944	80.117825
555.050598	80.141492
555.208252	80.157906
555.365845	80.168724
555.523438	80.176763
555.681030	80.189043
555.838684	80.200362
555.996216	80.205579
556.153809	80.204876
556.311401	80.195768
556.468994	80.182040
556.626526	80.170527
556.784058	80.158275
556.941589	80.145029
557.099121	80.132282
557.256653	80.115928
557.414185	80.098278
557.571716	80.076513
557.729187	80.057047
557.886719	80.040108
558.044189	80.024450
558.201660	80.012450
558.359131	80.001016
558.516602	79.991097
558.674011	79.977757
558.831482	79.963609
558.988892	79.946143
559.146362	79.929760
559.303772	79.919286
559.461182	79.915611
559.618591	79.915600
559.776001	79.915081
559.933350	79.913992
560.090759	79.917399
560.248108	79.924261
560.405518	79.928739
560.562866	79.938829
560.720215	79.952941
560.877563	79.967177
561.034851	79.984939
561.192200	80.010483
561.349548	80.024938
561.506836	80.036732
561.664124	80.051024
561.821411	80.061533
561.978699	80.074538
562.135986	80.087046
562.293274	80.099873
562.450500	80.117851
562.607788	80.142247
562.765015	80.173258
562.922241	80.205706
563.079468	80.237861
563.236694	80.272656
563.393921	80.301798
563.551147	80.333999
563.708313	80.366979
563.865540	80.401839
564.022705	80.431921
564.179871	80.462045
564.337036	80.483411
564.494202	80.509407
564.651367	80.538518
564.808472	80.563199
564.965637	80.591013
565.122742	80.620285
565.279846	80.649809
565.436951	80.683750
565.594055	80.712425
565.751160	80.734439
565.908264	80.754834
566.065308	80.769819
566.222412	80.785841
566.379456	80.795836
566.536499	80.806135
566.693542	80.814905
566.850586	80.821799
567.007629	80.827321
567.164673	80.828410
567.321655	80.827313
567.478699	80.820399
567.635681	80.818139
567.792664	80.822607
567.949646	80.827514
568.106628	80.840653
568.263611	80.853782
568.420532	80.867155
568.577515	80.876679
568.734436	80.882772
568.891357	80.889319
569.048279	80.892504
569.205200	80.899052
569.362122	80.909571
569.518982	80.915699
569.675903	80.923769
569.832764	80.933785
569.989685	80.942918
570.146545	80.946821
570.303406	80.951952
570.460266	80.954730
570.617065	80.969079
570.773926	80.983064
570.930786	80.994814
571.087585	81.003804
571.244385	81.007902
571.401184	81.009952
571.557983	81.009310
571.714783	81.009908
571.871582	81.013959
572.028320	81.018716
572.185120	81.017020
572.341858	81.016446
572.498596	81.013533
572.655334	81.009951
572.812073	81.000691
572.968811	80.988010
573.125488	80.976823
573.282227	80.968717
573.438904	80.958679
573.595581	80.950355
573.752258	80.941941
573.908936	80.928816
574.065613	80.910177
574.222290	80.898744
574.378906	80.884137
574.535583	80.868690
574.692200	80.855093
574.848816	80.846737
575.005432	80.842786
575.162048	80.841021
575.318665	80.846217
575.475281	80.852296
575.631836	80.853297
575.788452	80.860780
575.945007	80.876211
576.101562	80.893591
576.258118	80.910881
576.414673	80.933932
576.571167	80.965586
576.727722	80.998007
576.884216	81.024996
577.040771	81.048905
577.197266	81.072006
577.353760	81.094103
577.510254	81.112762
577.666748	81.132710
577.823181	81.154055
577.979675	81.164627
578.136108	81.168561
578.292542	81.167267
578.449036	81.161530
578.605469	81.149758
578.761841	81.132683
578.918274	81.109564
579.074707	81.085604
579.231079	81.064247
579.387451	81.040824
579.543884	81.007665
579.700256	80.974418
579.856628	80.940787
580.012939	80.908780
580.169312	80.881173
580.325684	80.859435
580.481995	80.835435
580.638306	80.820944
580.794617	80.807046
580.950928	80.793867
581.107239	80.787480
581.263550	80.785166
581.419800	80.787122
581.576111	80.793554
581.732361	80.802306
581.888611	80.820050
582.044861	80.841593
582.201111	80.859547
582.357361	80.875913
582.513611	80.893249
582.669800	80.910402
582.826050	80.921958
582.982239	80.931615
583.138428	80.940859
583.294617	80.949508
583.450806	80.953475
583.606995	80.956957
583.763123	80.955178
583.919312	80.949982
584.075439	80.942132
584.231567	80.936656
584.387695	80.928631
584.543823	80.918648
584.699951	80.909829
584.856018	80.902834
585.012146	80.896424
585.168213	80.890729
585.324341	80.888733
585.480408	80.885930
585.636475	80.885576
585.792480	80.890528
585.948547	80.897652
586.104614	80.908324
586.260620	80.920611
586.416626	80.935893
586.572693	80.954605
586.728699	80.974116
586.884705	80.993946
587.040649	81.016332
587.196655	81.037295
587.352600	81.051690
587.508606	81.066526
587.664551	81.084644
587.820496	81.098309
587.976440	81.109796
588.132385	81.117313
588.288330	81.125299
588.444214	81.133506
588.600159	81.137534
588.756042	81.135535
588.911926	81.131841
589.067810	81.127387
589.223694	81.120211
589.379578	81.109667
589.535400	81.097517
589.691284	81.083757
589.847107	81.071435
590.002930	81.064359
590.158752	81.058667
590.314575	81.055208
590.470398	81.055601
590.626221	81.059234
590.781982	81.060472
590.937805	81.065231
591.093567	81.073390
591.249329	81.083296
591.405090	81.092424
591.560852	81.099434
591.716614	81.111623
591.872375	81.127762
592.028076	81.145106
592.183777	81.166913
592.339539	81.190238
592.495239	81.213823
592.650940	81.237534
592.806580	81.257594
592.962280	81.277002
593.117920	81.289491
593.273621	81.295127
593.429260	81.302414
593.584900	81.310647
593.740540	81.315095
593.896179	81.317944
594.051819	81.316876
594.207397	81.314050
594.363037	81.313178
594.518616	81.309436
594.674194	81.304392
594.829773	81.298045
594.985352	81.292107
595.140930	81.288270
595.296509	81.282694
595.452026	81.274870
595.607605	81.272065
595.763123	81.268767
595.918640	81.271836
596.074158	81.273615
596.229675	81.276791
596.385132	81.283099
596.540649	81.290580
596.696106	81.296465
596.851624	81.307200
597.007080	81.317935
597.162537	81.329957
597.317993	81.341211
597.473389	81.351099
597.628845	81.368474
597.784241	81.394125
597.939697	81.419234
598.095093	81.444650
598.250488	81.467628
598.405884	81.490730
598.561279	81.514172
598.716614	81.535036
598.872009	81.551896
599.027344	81.565367
599.182739	81.574185
599.338074	81.583065
599.493408	81.592288
599.648682	81.597824
599.804016	81.605010
599.959351	81.612816
600.114624	81.618824
600.269958	81.627403
600.425232	81.633932
600.580505	81.637125
600.735779	81.633177
600.890991	81.621891
601.046265	81.614920
601.201477	81.607569
601.356750	81.593183
601.511963	81.574580
601.667175	81.557957
601.822388	81.539100
601.977600	81.525494
602.132812	81.509501
602.287964	81.498817
602.443115	81.491433
602.598328	81.484831
602.753479	81.482531
602.908630	81.482521
603.063782	81.478055
603.218872	81.479882
603.374023	81.484843
603.529114	81.491554
603.684265	81.509232
603.839355	81.528665
603.994446	81.546237
604.149536	81.563153
604.304626	81.579964
604.459656	81.602897
604.614746	81.625407
604.769775	81.646362
604.924805	81.666543
605.079834	81.685010
605.234863	81.707037
605.389893	81.732873
605.544922	81.754342
605.699890	81.778643
605.854919	81.797589
606.009888	81.814326
606.164856	81.828284
606.319824	81.836675
606.474792	81.838869
606.629761	81.843522
606.784668	81.838114
606.939636	81.836237
607.094543	81.834250
607.249451	81.824173
607.404358	81.805695
607.559265	81.789672
607.714172	81.774886
607.869080	81.761578
608.023926	81.750227
608.178772	81.737413
608.333679	81.725268
608.488525	81.707650
608.643372	81.690704
608.798218	81.674976
608.953003	81.662400
609.107849	81.647397
609.262634	81.639069
609.417419	81.631233
609.572266	81.623546
609.726990	81.621163
609.881775	81.620875
610.036560	81.623319
610.191345	81.631376
610.346069	81.648678
610.500793	81.676233
610.655579	81.702103
610.810303	81.731388
610.964966	81.760778
611.119690	81.792234
611.274414	81.829416
611.429077	81.866067
611.583801	81.902069
611.738464	81.940619
611.893127	81.978373
612.047791	82.017256
612.202454	82.057118
612.357056	82.094728
612.511719	82.131322
612.666321	82.167100
612.820923	82.190438
612.975586	82.212520
613.130188	82.224771
613.284729	82.229624
613.439331	82.226328
613.593933	82.224793
613.748474	82.220674
613.903015	82.213222
614.057556	82.202355
614.212097	82.189315
614.366638	82.168861
614.521179	82.143050
614.675720	82.118656
614.830200	82.092230
614.984680	82.063656
615.139221	82.031837
615.293701	82.001963
615.448181	81.967870
615.602600	81.937637
615.757080	81.913688
615.911499	81.893242
616.065979	81.872673
616.220398	81.854924
616.374817	81.841228
616.529236	81.828722
616.683655	81.810510
616.838074	81.798750
616.992432	81.792093
617.146851	81.790461
617.301208	81.791362
617.455566	81.796427
617.609924	81.808187
617.764282	81.823744
617.918579	81.840272
618.072937	81.853638
618.227234	81.870889
618.381592	81.885042
618.535889	81.895475
618.690186	81.902923
618.844482	81.905917
618.998718	81.910891
619.153015	81.918350
619.307312	81.925458
619.461548	81.933210
619.615784	81.944569
619.770020	81.954731
619.924255	81.958411
620.078491	81.959892
620.232666	81.955949
620.386902	81.948046
620.541077	81.939139
620.695251	81.930351
620.849487	81.915879
621.003601	81.902845
621.157776	81.889589
621.311951	81.872802
621.466064	81.857067
621.620239	81.846771
621.774353	81.838372
621.928467	81.832333
622.082581	81.824351
622.236694	81.817441
622.390808	81.817394
622.544861	81.815677
622.698975	81.818934
622.853027	81.825480
623.007080	81.831364
623.161133	81.837919
623.315186	81.851654
623.469238	81.871784
623.623230	81.890979
623.777283	81.908326
623.931274	81.927367
624.085266	81.949371
624.239258	81.974325
624.393250	81.999206
624.547241	82.025149
624.701233	82.054633
624.855164	82.084720
625.009094	82.114821
625.163086	82.150633
625.317017	82.185874
625.470947	82.213277
625.624817	82.243928
625.778748	82.272780
625.932617	82.301504
626.086548	82.332642
626.240417	82.357378
626.394287	82.381473
626.548157	82.401219
626.702026	82.419785
626.855896	82.432892
627.009705	82.447025
627.163574	82.455803
627.317383	82.466842
627.471191	82.478721
627.625000	82.484737
627.778809	82.492370
627.932556	82.498350
628.086365	82.501060
628.240112	82.503178
628.393921	82.506190
628.547668	82.508136
628.701416	82.508383
628.855164	82.505918
629.008850	82.504218
629.162598	82.506713
629.316284	82.512683
629.470032	82.514665
629.623718	82.515191
629.777405	82.518731
629.931091	82.529930
630.084778	82.546018
630.238403	82.560803
630.392090	82.573334
630.545715	82.589706
630.699341	82.608589
630.852966	82.625080
631.006592	82.641140
631.160217	82.660776
631.313843	82.674921
631.467407	82.684563
631.620972	82.700788
631.774597	82.712904
631.928162	82.721995
632.081726	82.727836
632.235229	82.729010
632.388794	82.729821
632.542358	82.725500
632.695862	82.718554
632.849365	82.709750
633.002869	82.698253
633.156372	82.681227
633.309875	82.664273
633.463379	82.645608
633.616821	82.624025
633.770325	82.606931
633.923767	82.583031
634.077209	82.559181
634.230652	82.533875
634.384094	82.510572
634.537537	82.492390
634.690918	82.471370
634.844299	82.456008
634.997742	82.441263
635.151123	82.430039
635.304504	82.418828
635.457886	82.412132
635.611206	82.411714
635.764587	82.416491
635.917908	82.424982
636.071289	82.436430
636.224609	82.446818
636.377930	82.461384
636.531250	82.479699
636.684570	82.493327
636.837830	82.505845
636.991150	82.521891
637.144409	82.542566
637.297668	82.562862
637.450928	82.581971
637.604187	82.596833
637.757446	82.608890
637.910645	82.619252
638.063904	82.630895
638.217102	82.639300
638.370300	82.644005
638.523499	82.646370
638.676697	82.647524
638.829895	82.643673
638.983093	82.634880
639.136230	82.623205
639.289429	82.613922
639.442566	82.602531
639.595703	82.585051
639.748840	82.568393
639.901978	82.551100
640.055054	82.536724
640.208191	82.520725
640.361267	82.504824
640.514343	82.491364
640.667419	82.475924
640.820496	82.467643
640.973572	82.459369
641.126648	82.453356
641.279663	82.450092
641.432739	82.454936
641.585754	82.458489
641.738770	82.464106
641.891785	82.473860
642.044800	82.489191
642.197754	82.505808
642.350769	82.523814
642.503723	82.541066
642.656738	82.561736
642.809692	82.587265
642.962646	82.611049
643.115540	82.635045
643.268494	82.657105
643.421448	82.675835
643.574341	82.693814
643.727234	82.713931
643.880127	82.731678
644.033020	82.747883
644.185913	82.762621
644.338806	82.775101
644.491699	82.783605
644.644531	82.792251
644.797363	82.799779
644.950195	82.807999
645.103027	82.811925
645.255859	82.814814
645.408691	82.811805
645.561462	82.806191
645.714294	82.799117
645.867065	82.789929
646.019836	82.780691
646.172607	82.771191
646.325378	82.760887
646.478149	82.753975
646.630859	82.746818
646.783630	82.742689
646.936340	82.734632
647.089050	82.728005
647.241760	82.718986
647.394470	82.709378
647.547180	82.697676
647.699829	82.686243
647.852539	82.674120
648.005188	82.662738
648.157837	82.652582
648.310486	82.642051
648.463135	82.633532
648.615784	82.626410
648.768433	82.622472
648.921021	82.619999
649.073608	82.619680
649.226257	82.617173
649.378845	82.611795
649.531372	82.605163
649.683960	82.598407
649.836548	82.592081
649.989075	82.585160
650.141663	82.582046
650.294189	82.579362
650.446716	82.577992
650.599243	82.581785
650.751709	82.585213
650.904236	82.588593
651.056702	82.592809
651.209229	82.597455
651.361694	82.598953
651.514160	82.599020
651.666626	82.602099
651.819092	82.606060
651.971497	82.608440
652.123962	82.610803
652.276367	82.614552
652.428772	82.622143
652.581177	82.630499
652.733582	82.638801
652.885986	82.643582
653.038330	82.651105
653.190735	82.655376
653.343079	82.661137
653.495422	82.666578
653.647827	82.669854
653.800110	82.672529
653.952454	82.674889
654.104797	82.675028
654.257080	82.674653
654.409424	82.676397
654.561707	82.678771
654.713989	82.678398
654.866272	82.673487
655.018555	82.664007
655.170776	82.651762
655.323059	82.634820
655.475281	82.617508
655.627502	82.601540
655.779724	82.582513
655.931946	82.563057
656.084167	82.546302
656.236328	82.528831
656.388550	82.513838
656.540710	82.502439
656.692871	82.493253
656.845093	82.486169
656.997192	82.480313
657.149353	82.470282
657.301514	82.459388
657.453613	82.449446
657.605774	82.445911
657.757874	82.445622
657.909973	82.451033
658.062073	82.462209
658.214172	82.476861
658.366211	82.496553
658.518311	82.515903
658.670349	82.536738
658.822388	82.561657
658.974426	82.591030
659.126465	82.617148
659.278503	82.645850
659.430481	82.670617
659.582520	82.691709
659.734497	82.711457
659.886475	82.730852
660.038452	82.750129
660.190430	82.772331
660.342407	82.793363
660.494385	82.811909
660.646301	82.824410
660.798279	82.835457
660.950195	82.839032
661.102112	82.844069
661.254028	82.848369
661.405884	82.852976
661.557800	82.857399
661.709717	82.856741
661.861572	82.857157
662.013428	82.853441
662.165283	82.850803
662.317139	82.847289
662.468994	82.843141
662.620789	82.835246
662.772644	82.823791
662.924438	82.808290
663.076233	82.789481
663.228027	82.771017
663.379822	82.751765
663.531616	82.732908
663.683411	82.714613
663.835144	82.694980
663.986877	82.676314
664.138611	82.657285
664.290344	82.640534
664.442078	82.620974
664.593811	82.605252
664.745544	82.591406
664.897217	82.577566
665.048889	82.564948
665.200623	82.551271
665.352295	82.532824
665.503967	82.517976
665.655579	82.509076
665.807251	82.503320
665.958862	82.502328
666.110535	82.504187
666.262146	82.507998
666.413757	82.516936
666.565369	82.527984
666.716919	82.541508
666.868530	82.556601
667.020081	82.577428
667.171692	82.596542
667.323242	82.612488
667.474792	82.629585
667.626343	82.641948
667.777832	82.653938
667.929382	82.664581
668.080872	82.676097
668.232422	82.686098
668.383911	82.698830
668.535400	82.709122
668.686890	82.720971
668.838318	82.731639
668.989807	82.741636
669.141235	82.751987
669.292725	82.757993
669.444153	82.761563
669.595581	82.767672
669.747009	82.772879
669.898376	82.779811
670.049805	82.784022
670.201172	82.789135
670.352539	82.791999
670.503967	82.794710
670.655273	82.800231
670.806641	82.806356
670.958008	82.809805
671.109375	82.813441
671.260681	82.821316
671.411987	82.831101
671.563293	82.844751
671.714600	82.859712
671.865906	82.874399
672.017212	82.888127
672.168457	82.901999
672.319763	82.916597
672.471008	82.929130
672.622253	82.938868
672.773499	82.946454
672.924744	82.951539
673.075928	82.954704
673.227173	82.956877
673.378357	82.960987
673.529541	82.964925
673.680786	82.969418
673.831909	82.973980
673.983093	82.978206
674.134277	82.981262
674.285400	82.985003
674.436584	82.986873
674.587708	82.985548
674.738831	82.978407
674.889954	82.970296
675.041077	82.959541
675.192139	82.945151
675.343262	82.933745
675.494324	82.924006
675.645386	82.912439
675.796448	82.900806
675.947510	82.887883
676.098572	82.879306
676.249634	82.869496
676.400635	82.862283
676.551636	82.857503
676.702698	82.850929
676.853699	82.847500
677.004639	82.849755
677.155640	82.851796
677.306641	82.849266
677.457581	82.851966
677.608521	82.853352
677.759521	82.854624
677.910461	82.858260
678.061401	82.864512
678.212280	82.873028
678.363220	82.882865
678.514099	82.894439
678.664978	82.905215
678.815918	82.922176
678.966797	82.940964
679.117615	82.958947
679.268494	82.977713
679.419373	82.993520
679.570190	83.007989
679.721008	83.021435
679.871826	83.030663
680.022644	83.036167
680.173462	83.043643
680.324280	83.050063
680.475037	83.051378
680.625854	83.052529
680.776611	83.054287
680.927368	83.054513
681.078125	83.056011
681.228882	83.057722
681.379639	83.058500
681.530334	83.055543
681.681030	83.054915
681.831787	83.053633
681.982483	83.051534
682.133179	83.046606
682.283813	83.043074
682.434509	83.039617
682.585205	83.038188
682.735840	83.038262
682.886475	83.036529
683.037109	83.033549
683.187744	83.027378
683.338379	83.024394
683.488953	83.018716
683.639587	83.014440
683.790161	83.010295
683.940735	83.007086
684.091309	83.003537
684.241882	82.999606
684.392456	82.993964
684.543030	82.988886
684.693542	82.986137
684.844055	82.975862
684.994568	82.963717
685.145081	82.953907
685.295593	82.943852
685.446106	82.935321
685.596619	82.923582
685.747070	82.911038
685.897522	82.903908
686.047974	82.900548
686.198425	82.898267
686.348877	82.896336
686.499329	82.898250
686.649719	82.902505
686.800171	82.910654
686.950562	82.919793
687.100952	82.928933
687.251343	82.939694
687.401733	82.949644
687.552124	82.964352
687.702454	82.977650
687.852783	82.992296
688.003174	83.010166
688.153503	83.029006
688.303833	83.047739
688.454102	83.065476
688.604431	83.082327
688.754700	83.096787
688.905029	83.108111
689.055298	83.115374
689.205566	83.124256
689.355835	83.130586
689.506104	83.136981
689.656311	83.141947
689.806580	83.144614
689.956787	83.146595
690.106995	83.148349
690.257202	83.151303
690.407410	83.155591
690.557617	83.156228
690.707764	83.155900
690.857971	83.157124
691.008118	83.159086
691.158264	83.160593
691.308411	83.161389
691.458557	83.161425
691.608704	83.161310
691.758789	83.162751
691.908936	83.163786
692.059021	83.165958
692.209106	83.166515
692.359192	83.171987
692.509277	83.176391
692.659302	83.178994
692.809387	83.179338
692.959412	83.179262
693.109436	83.176347
693.259460	83.172282
693.409485	83.166646
693.559509	83.158297
693.709534	83.149678
693.859497	83.142574
694.009521	83.132791
694.159485	83.118837
694.309448	83.103781
694.459412	83.089008
694.609314	83.074557
694.759277	83.061547
694.909180	83.047718
695.059143	83.035517
695.209045	83.023526
695.358948	83.010452
695.508850	82.998498
695.658691	82.990623
695.808594	82.984773
695.958435	82.980039
696.108337	82.977790
696.258179	82.975201
696.408020	82.973535
696.557800	82.975540
696.707642	82.977579
696.857483	82.980264
697.007263	82.985981
697.157043	82.991837
697.306824	82.998979
697.456604	83.007575
697.606384	83.020503
697.756165	83.032504
697.905884	83.047891
698.055603	83.062773
698.205383	83.078270
698.355103	83.088803
698.504822	83.098975
698.654480	83.107391
698.804199	83.115209
698.953857	83.120157
699.103577	83.124223
699.253235	83.124404
699.402893	83.124279
699.552551	83.123662
699.702148	83.123272
699.851807	83.120835
700.001404	83.117752
700.151062	83.119302
700.300659	83.118635
700.450256	83.119257
700.599792	83.117841
700.749390	83.114873
700.898987	83.112834
701.048523	83.108654
701.198059	83.103547
701.347595	83.104151
701.497131	83.106453
701.646667	83.106913
701.796204	83.108274
701.945679	83.111739
702.095154	83.114542
702.244690	83.123213
702.394165	83.132551
702.543640	83.141286
702.693054	83.150516
702.842529	83.159536
702.991943	83.166061
703.141418	83.167411
703.290833	83.168850
703.440247	83.166242
703.589661	83.162001
703.739014	83.160697
703.888428	83.156529
704.037781	83.152705
704.187134	83.147991
704.336487	83.139899
704.485840	83.128949
704.635193	83.119088
704.784546	83.106314
704.933838	83.091164
705.083191	83.075789
705.232483	83.060365
705.381775	83.046049
705.531067	83.032373
705.680359	83.020898
705.829590	83.010809
705.978882	83.003615
706.128113	82.999680
706.277344	82.998341
706.426575	82.997646
706.575806	82.996376
706.725037	82.995738
706.874207	82.995779
707.023438	82.997559
707.172607	83.002523
707.321777	83.006688
707.470947	83.011596
707.620117	83.014973
707.769287	83.019545
707.918396	83.024200
708.067505	83.030875
708.216675	83.032729
708.365784	83.032944
708.514893	83.031761
708.663940	83.027402
708.813049	83.022272
708.962097	83.013802
709.111206	83.005140
709.260254	82.996817
709.409302	82.993192
709.558350	82.989335
709.707397	82.982792
709.856384	82.975022
710.005432	82.968808
710.154419	82.963091
710.303406	82.958904
710.452393	82.956511
710.601379	82.953060
710.750305	82.952762
710.899292	82.955755
711.048218	82.961483
711.197205	82.970734
711.346130	82.981008
711.495056	82.994112
711.643921	83.009101
711.792847	83.027105
711.941711	83.045712
712.090637	83.064042
712.239502	83.084283
712.388367	83.100181
712.537231	83.119053
712.686096	83.138349
712.834900	83.157069
712.983765	83.176805
713.132568	83.194479
713.281372	83.212577
713.430176	83.227255
713.578979	83.243608
713.727722	83.257665
713.876526	83.272493
714.025269	83.283407
714.174072	83.293421
714.322815	83.303779
714.471558	83.311321
714.620239	83.315265
714.768982	83.316070
714.917664	83.316094
715.066406	83.317241
715.215088	83.315101
715.363770	83.311348
715.512451	83.307793
715.661072	83.305332
715.809753	83.302533
715.958374	83.294174
716.107056	83.287437
716.255676	83.280246
716.404297	83.272699
716.552917	83.266576
716.701477	83.261169
716.850098	83.252735
716.998657	83.245365
717.147217	83.238164
717.295776	83.231121
717.444336	83.226779
717.592896	83.225346
717.741455	83.222661
717.889954	83.222930
718.038513	83.221814
718.187012	83.219043
718.335510	83.220423
718.484009	83.220894
718.632446	83.224034
718.780945	83.231415
718.929382	83.243063
719.077881	83.254631
719.226318	83.265951
719.374756	83.280906
719.523132	83.295057
719.671570	83.312853
719.820007	83.331772
719.968384	83.352629
720.116760	83.372187
720.265137	83.388577
720.413513	83.402308
720.561890	83.415433
720.710205	83.427970
720.858582	83.439757
721.006897	83.451378
721.155212	83.463844
721.303528	83.475643
721.451843	83.486038
721.600159	83.491484
721.748413	83.496834
721.896729	83.500058
722.044983	83.499264
722.193237	83.498251
722.341492	83.495773
722.489746	83.494727
722.637939	83.487178
722.786194	83.479893
722.934387	83.469202
723.082581	83.459461
723.230774	83.451075
723.378967	83.443976
723.527161	83.434914
723.675354	83.428967
723.823486	83.422043
723.971619	83.415269
724.119751	83.412469
724.267883	83.411930
724.416016	83.414764
724.564148	83.421199
724.712219	83.426851
724.860352	83.431723
725.008423	83.439372
725.156494	83.449377
725.304565	83.458485
725.452637	83.468385
725.600647	83.478893
725.748718	83.487399
725.896729	83.495995
726.044739	83.505076
726.192749	83.514706
726.340759	83.522838
726.488770	83.532962
726.636719	83.543232
726.784729	83.553735
726.932678	83.565277
727.080627	83.575722
727.228577	83.583116
727.376526	83.587793
727.524414	83.590692
727.672363	83.590285
727.820251	83.591155
727.968140	83.590918
728.116028	83.589201
728.263916	83.588407
728.411804	83.581811
728.559631	83.576500
728.707520	83.573041
728.855347	83.571295
729.003174	83.567466
729.151001	83.564818
729.298828	83.560294
729.446594	83.555759
729.594421	83.550620
729.742188	83.544520
729.890015	83.538216
730.037781	83.531479
730.185486	83.523183
730.333252	83.513627
730.481018	83.504071
730.628723	83.496898
730.776428	83.490758
730.924194	83.486639
731.071899	83.482282
731.219543	83.479182
731.367249	83.478416
731.514954	83.477773
731.662598	83.476911
731.810242	83.475317
731.957886	83.474318
732.105530	83.472333
732.253174	83.474623
732.400818	83.476866
732.548401	83.479196
732.695984	83.482232
732.843567	83.484708
732.991150	83.486025
733.138733	83.488725
733.286316	83.491661
733.433838	83.495101
733.581421	83.497921
733.728943	83.500668
733.876465	83.501196
734.023987	83.500731
734.171509	83.498787
734.318970	83.498941
734.466492	83.501713
734.613953	83.504894
734.761414	83.507350
734.908875	83.510596
735.056335	83.512427
735.203796	83.515876
735.351196	83.520092
735.498657	83.524368
735.646057	83.529572
735.793457	83.535850
735.940857	83.541977
736.088257	83.548303
736.235657	83.558008
736.382996	83.567948
736.530334	83.578345
736.677734	83.589202
736.825073	83.601262
736.972351	83.614001
737.119690	83.626822
737.267029	83.638999
737.414307	83.648642
737.561584	83.657521
737.708862	83.666927
737.856140	83.675069
738.003418	83.685226
738.150696	83.691151
738.297913	83.697008
738.445190	83.700483
738.592407	83.702030
738.739624	83.702704
738.886841	83.703958
739.033997	83.704334
739.181213	83.702326
739.328369	83.698512
739.475586	83.693851
739.622742	83.686243
739.769897	83.678970
739.916992	83.672431
740.064148	83.663860
740.211304	83.655305
740.358398	83.645178
740.505493	83.634568
740.652588	83.625661
740.799683	83.619068
740.946777	83.612372
741.093811	83.604389
741.240906	83.594189
741.387939	83.585023
741.534973	83.579150
741.682007	83.574224
741.829041	83.568733
741.976013	83.566057
742.123047	83.563585
742.270020	83.563366
742.416992	83.565192
742.563965	83.569596
742.710938	83.573477
742.857910	83.578055
743.004883	83.585683
743.151794	83.595140
743.298706	83.609304
743.445618	83.625174
743.592529	83.639779
743.739441	83.655034
743.886353	83.667842
744.033203	83.683020
744.180115	83.697836
744.326965	83.714351
744.473816	83.729360
744.620667	83.742152
744.767456	83.754115
744.914307	83.764408
745.061096	83.772273
745.207947	83.780392
745.354736	83.788708
745.501526	83.796215
745.648254	83.804755
745.795044	83.810036
745.941833	83.815049
746.088562	83.816802
746.235291	83.815181
746.382019	83.811094
746.528748	83.804457
746.675476	83.793180
746.822144	83.783966
746.968872	83.774650
747.115540	83.768153
747.262207	83.760303
747.408875	83.750110
747.555542	83.739419
747.702148	83.730289
747.848816	83.721114
747.995422	83.715723
748.142029	83.710201
748.288635	83.704589
748.435242	83.699486
748.581848	83.696097
748.728394	83.696558
748.875000	83.696292
749.021545	83.697231
749.168091	83.697571
749.314636	83.699172
749.461182	83.703602
749.607666	83.710991
749.754211	83.718390
749.900696	83.728496
750.047180	83.738010
750.193665	83.746440
750.340149	83.759396
750.486633	83.774477
750.633057	83.789008
750.779541	83.803374
750.925964	83.818462
751.072388	83.830978
751.218811	83.838672
751.365234	83.846734
751.511597	83.849324
751.658020	83.849390
751.804382	83.849484
751.950745	83.846039
752.097107	83.843502
752.243469	83.840913
752.389832	83.837922
752.536133	83.835088
752.682495	83.830266
752.828796	83.821886
752.975098	83.812181
753.121399	83.804200
753.267639	83.793097
753.413940	83.782057
753.560181	83.769073
753.706482	83.755556
753.852722	83.739961
753.998962	83.726504
754.145203	83.716911
754.291382	83.706548
754.437622	83.698384
754.583801	83.691250
754.729980	83.685438
754.876160	83.683194
755.022339	83.681318
755.168518	83.680221
755.314697	83.679392
755.460815	83.677134
755.606934	83.677565
755.753052	83.677202
755.899170	83.677847
756.045288	83.678749
756.191406	83.678462
756.337463	83.677711
756.483521	83.680636
756.629639	83.683219
756.775696	83.687837
756.921692	83.692350
757.067749	83.698668
757.213806	83.706382
757.359802	83.717786
757.505798	83.729886
757.651794	83.738818
757.797791	83.751589
757.943787	83.765231
758.089783	83.779996
758.235718	83.793874
758.381653	83.808319
758.527588	83.820919
758.673523	83.837352
758.819458	83.855066
758.965393	83.870269
759.111267	83.887672
759.257202	83.905003
759.403076	83.922539
759.548950	83.941641
759.694824	83.958907
759.840698	83.973383
759.986511	83.982441
760.132385	83.988032
760.278198	83.990296
760.424011	83.989489
760.569824	83.987352
760.715637	83.979564
760.861389	83.970006
761.007202	83.956954
761.152954	83.942479
761.298706	83.929028
761.444458	83.915179
761.590210	83.900434
761.735962	83.884353
761.881653	83.869600
762.027405	83.854939
762.173096	83.840370
762.318787	83.825430
762.464478	83.811189
762.610168	83.795751
762.755798	83.783969
762.901489	83.776065
763.047119	83.768402
763.192749	83.760201
763.338379	83.752947
763.484009	83.750767
763.629639	83.749468
763.775208	83.749985
763.920837	83.752414
764.066406	83.757279
764.211975	83.762789
764.357544	83.771008
764.503052	83.778618
764.648621	83.785946
764.794128	83.794551
764.939697	83.801585
765.085205	83.807181
765.230713	83.809224
765.376221	83.808932
765.521667	83.807629
765.667175	83.805439
765.812622	83.801486
765.958069	83.800434
766.103516	83.799879
766.248962	83.800434
766.394409	83.800193
766.539795	83.801783
766.685181	83.803221
766.830627	83.805965
766.976013	83.808855
767.121399	83.811995
767.266724	83.814594
767.412109	83.815061
767.557434	83.816050
767.702820	83.817224
767.848145	83.818919
767.993469	83.822010
768.138733	83.826386
768.284058	83.830373
768.429382	83.835927
768.574646	83.841942
768.719910	83.848564
768.865173	83.853820
769.010437	83.859851
769.155701	83.867302
769.300903	83.872899
769.446167	83.877382
769.591370	83.879852
769.736572	83.879902
769.881775	83.879362
770.026978	83.876964
770.172119	83.872970
770.317322	83.869644
770.462463	83.866783
770.607605	83.861634
770.752747	83.857229
770.897888	83.853093
771.042969	83.851020
771.188110	83.848457
771.333191	83.847243
771.478271	83.844051
771.623352	83.842092
771.768433	83.840991
771.913513	83.841167
772.058533	83.838576
772.203613	83.838491
772.348633	83.840103
772.493652	83.842938
772.638672	83.845930
772.783691	83.848277
772.928650	83.849028
773.073669	83.850654
773.218628	83.853091
773.363586	83.852515
773.508545	83.852802
773.653503	83.853102
773.798462	83.854498
773.943359	83.854819
774.088257	83.856763
774.233215	83.858613
774.378113	83.859487
774.522949	83.860237
774.667847	83.860906
774.812744	83.859028
774.957581	83.857598
775.102417	83.854421
775.247253	83.850351
775.392090	83.846014
775.536926	83.844468
775.681763	83.843975
775.826538	83.845635
775.971313	83.847976
776.116089	83.852368
776.260864	83.858939
776.405640	83.865220
776.550415	83.871667
776.695129	83.877187
776.839905	83.882453
776.984619	83.889794
777.129333	83.897727
777.274048	83.906263
777.418701	83.913912
777.563416	83.921227
777.708069	83.928048
777.852722	83.937533
777.997375	83.947378
778.142029	83.955776
778.286682	83.964884
778.431335	83.971767
778.575928	83.978659
778.720520	83.986271
778.865112	83.993153
779.009705	84.000500
779.154297	84.009940
779.298889	84.022540
779.443420	84.035993
779.588013	84.049319
779.732544	84.062393
779.877075	84.073265
780.021606	84.081626
780.166077	84.090646
780.310608	84.098887
780.455078	84.107080
780.599548	84.116513
780.744019	84.124518
780.888489	84.134178
781.032959	84.145952
781.177429	84.158225
781.321838	84.171384
781.466248	84.182611
781.610657	84.193490
781.755066	84.204161
781.899475	84.211593
782.043884	84.215739
782.188232	84.218494
782.332581	84.217931
782.476929	84.216386
782.621277	84.213652
782.765625	84.209029
782.909973	84.201491
783.054260	84.195325
783.198608	84.191681
783.342896	84.186945
783.487183	84.183362
783.631470	84.180366
783.775696	84.174340
783.919983	84.166834
784.064209	84.157450
784.208435	84.149901
784.352722	84.144940
784.496887	84.139973
784.641113	84.135056
784.785339	84.130143
784.929504	84.126402
785.073669	84.119026
785.217896	84.113103
785.362000	84.106511
785.506165	84.100761
785.650330	84.096806
785.794434	84.099003
785.938599	84.101436
786.082703	84.102433
786.226807	84.104005
786.370911	84.108171
786.514954	84.112180
786.659058	84.117744
786.803101	84.123511
786.947144	84.129957
787.091187	84.133086
787.235229	84.135123
787.379272	84.137657
787.523254	84.140415
787.667297	84.144296
787.811279	84.146674
787.955261	84.151738
788.099243	84.159094
788.243225	84.168154
788.387146	84.178280
788.531128	84.189177
788.675049	84.199632
788.818970	84.208356
788.962891	84.215514
789.106812	84.221446
789.250671	84.222674
789.394592	84.221724
789.538452	84.218951
789.682312	84.216274
789.826172	84.213881
789.970032	84.210339
790.113892	84.205289
790.257690	84.199424
790.401550	84.193059
790.545349	84.184896
790.689148	84.179008
790.832947	84.175685
790.976685	84.170733
791.120483	84.166043
791.264221	84.159638
791.408020	84.153168
791.551758	84.145051
791.695435	84.136451
791.839172	84.130207
791.982910	84.126817
792.126587	84.123222
792.270264	84.123572
792.414001	84.125318
792.557617	84.126870
792.701294	84.129215
792.844971	84.134223
792.988586	84.140065
793.132263	84.147584
793.275879	84.155171
793.419495	84.164073
793.563110	84.172650
793.706665	84.178312
793.850281	84.183763
793.993835	84.187887
794.137390	84.192196
794.280945	84.195799
794.424500	84.196484
794.568054	84.196899
794.711548	84.196282
794.855103	84.192712
794.998596	84.188680
795.142090	84.180591
795.285583	84.171531
795.429016	84.163341
795.572510	84.154618
795.715942	84.144155
795.859436	84.134207
796.002869	84.122845
796.146301	84.112256
796.289673	84.104403
796.433105	84.095274
796.576477	84.083747
796.719910	84.072823
796.863281	84.061219
797.006653	84.053347
797.149963	84.045756
797.293335	84.039913
797.436707	84.037988
797.580017	84.039480
797.723328	84.044090
797.866638	84.054008
798.009949	84.065166
798.153198	84.076864
798.296509	84.086778
798.439758	84.097909
798.583008	84.109680
798.726257	84.122218
798.869507	84.132836
799.012756	84.144185
799.156006	84.153665
799.299194	84.165887
799.442383	84.181016
799.585571	84.198492
799.728760	84.217818
799.871948	84.235192
800.015076	84.253141
800.158264	84.272127
800.301392	84.288843
800.444519	84.300588
800.587646	84.310695
800.730774	84.319236
800.873840	84.327925
801.016968	84.338208
801.160034	84.347825
801.303101	84.353412
801.446167	84.359543
801.589233	84.364904
801.732239	84.370962
801.875305	84.375324
802.018311	84.376340
802.161316	84.374167
802.304321	84.370930
802.447327	84.363796
802.590332	84.355676
802.733276	84.344091
802.876282	84.330422
803.019226	84.317305
803.162170	84.303853
803.305115	84.292126
803.447998	84.281434
803.590942	84.266012
803.733826	84.249928
803.876709	84.231326
804.019592	84.214431
804.162476	84.198516
804.305359	84.181359
804.448181	84.165085
804.591064	84.152371
804.733887	84.140551
804.876709	84.132889
805.019531	84.127580
805.162354	84.125875
805.305115	84.124970
805.447937	84.125262
805.590698	84.128055
805.733459	84.132520
805.876221	84.138719
806.018982	84.146755
806.161682	84.155733
806.304443	84.165348
806.447144	84.175826
806.589844	84.187026
806.732544	84.200179
806.875244	84.213104
807.017883	84.226355
807.160583	84.240022
807.303223	84.251232
807.445862	84.257933
807.588501	84.260715
807.731140	84.258651
807.873779	84.255456
808.016357	84.249455
808.158936	84.241874
808.301575	84.232879
808.444153	84.223844
808.586670	84.217874
808.729248	84.212068
808.871826	84.206947
809.014343	84.198273
809.156860	84.187389
809.299377	84.180381
809.441895	84.173536
809.584412	84.165756
809.726868	84.159114
809.869385	84.153154
810.011841	84.149642
810.154297	84.150380
810.296753	84.151646
810.439148	84.157466
810.581604	84.167485
810.723999	84.179638
810.866455	84.192050
811.008850	84.207579
811.151184	84.224928
811.293579	84.245172
811.435974	84.262338
811.578308	84.278483
811.720642	84.292503
811.863037	84.307615
812.005310	84.324198
812.147644	84.340762
812.289978	84.357607
812.432251	84.372635
812.574524	84.386805
812.716858	84.404222
812.859070	84.418455
813.001343	84.428613
813.143616	84.438965
813.285828	84.448202
813.428101	84.457300
813.570312	84.462749
813.712524	84.466951
813.854675	84.468940
813.996887	84.470804
814.139099	84.469967
814.281250	84.468893
814.423401	84.465123
814.565552	84.459367
814.707703	84.455596
814.849792	84.450671
814.991943	84.441673
815.134033	84.429646
815.276123	84.418698
815.418213	84.405665
815.560303	84.388976
815.702393	84.371544
815.844421	84.353119
815.986511	84.336569
816.128540	84.319787
816.270569	84.301963
816.412598	84.284789
816.554565	84.268659
816.696594	84.255309
816.838562	84.241137
816.980591	84.229347
817.122559	84.218444
817.264465	84.209103
817.406433	84.200231
817.548401	84.192753
817.690308	84.184382
817.832214	84.178883
817.974121	84.176772
818.116028	84.176902
818.257935	84.178520
818.399780	84.177751
818.541687	84.179606
818.683533	84.182356
818.825378	84.182681
818.967224	84.183020
819.109070	84.184407
819.250854	84.186086
819.392700	84.187800
819.534485	84.189211
819.676270	84.190221
819.818054	84.191109
819.959839	84.190494
820.101562	84.188935
820.243347	84.189325
820.385071	84.186598
820.526794	84.183898
820.668518	84.179306
820.810242	84.175438
820.951904	84.171107
821.093628	84.168450
821.235291	84.170753
821.376953	84.173335
821.518616	84.179082
821.660278	84.186596
821.801880	84.196681
821.943542	84.208074
822.085144	84.221100
822.226746	84.236036
822.368347	84.250345
822.509949	84.267061
822.651550	84.279473
822.793091	84.292994
822.934631	84.307370
823.076233	84.322263
823.217773	84.339118
823.359253	84.359459
823.500793	84.381558
823.642273	84.403294
823.783813	84.421407
823.925293	84.438936
824.066772	84.454802
824.208252	84.468193
824.349670	84.481334
824.491150	84.495731
824.632568	84.506910
824.773987	84.516981
824.915405	84.526665
825.056824	84.533268
825.198242	84.538930
825.339600	84.542820
825.481018	84.547708
825.622375	84.552332
825.763733	84.556585
825.905029	84.561481
826.046387	84.565627
826.187744	84.569080
826.329041	84.572536
826.470337	84.576281
826.611633	84.583573
826.752930	84.589817
826.894226	84.595507
827.035461	84.603507
827.176758	84.606698
827.317993	84.608361
827.459229	84.609615
827.600464	84.607325
827.741638	84.605012
827.882874	84.603664
828.024048	84.599553
828.165222	84.592812
828.306396	84.586957
828.447571	84.580161
828.588745	84.569854
828.729858	84.556780
828.871033	84.542307
829.012146	84.525317
829.153259	84.504911
829.294373	84.478112
829.435486	84.450257
829.576538	84.421183
829.717590	84.390990
829.858704	84.361768
829.999756	84.336073
830.140808	84.311467
830.281799	84.290947
830.422852	84.271913
830.563843	84.253657
830.704834	84.238719
830.845825	84.228083
830.986816	84.221198
831.127808	84.218250
831.268799	84.218574
831.409729	84.225127
831.550659	84.232943
831.691589	84.245729
831.832520	84.260768
831.973450	84.283212
832.114319	84.310886
832.255249	84.338650
832.396118	84.367808
832.536987	84.398530
832.677856	84.427780
832.818726	84.457152
832.959534	84.484983
833.100342	84.510025
833.241211	84.535978
833.382019	84.558712
833.522827	84.576928
833.663574	84.592041
833.804382	84.605265
833.945129	84.612209
834.085876	84.614776
834.226685	84.613112
834.367371	84.608203
834.508118	84.596831
834.648865	84.581422
834.789551	84.559722
834.930237	84.539100
835.070923	84.520795
835.211609	84.503152
835.352295	84.485177
835.492981	84.466825
835.633606	84.449865
835.774231	84.434016
835.914856	84.417777
836.055481	84.401751
836.196106	84.387934
836.336670	84.374899
836.477295	84.365782
836.617859	84.358457
836.758423	84.353243
836.898987	84.350226
837.039551	84.351085
837.180054	84.355106
837.320618	84.362470
837.461121	84.372371
837.601624	84.383600
837.742126	84.391753
837.882629	84.400216
838.023071	84.410829
838.163574	84.422429
838.304016	84.433027
838.444458	84.443067
838.584900	84.455641
838.725281	84.465895
838.865723	84.476867
839.006104	84.487079
839.146545	84.496689
839.286926	84.503892
839.427307	84.506886
839.567627	84.509807
839.708008	84.511802
839.848328	84.510196
839.988647	84.510675
840.128967	84.512586
840.269287	84.514745
840.409607	84.517052
840.549927	84.521529
840.690186	84.521684
840.830444	84.520205
840.970703	84.520501
841.110962	84.523254
841.251221	84.522390
841.391418	84.517790
841.531677	84.516773
841.671875	84.514160
841.812073	84.513325
841.952271	84.515200
842.092468	84.515153
842.232605	84.518897
842.372803	84.521650
842.512939	84.525626
842.653076	84.531190
842.793213	84.533950
842.933289	84.533535
843.073425	84.532747
843.213501	84.531288
843.353638	84.530471
843.493713	84.530307
843.633789	84.526715
843.773804	84.519705
843.913879	84.510875
844.053894	84.503546
844.193909	84.495059
844.333923	84.485790
844.473938	84.476679
844.613953	84.465993
844.753906	84.452187
844.893921	84.440645
845.033875	84.428548
845.173828	84.419487
845.313782	84.408022
845.453735	84.397183
845.593628	84.386303
845.733582	84.376523
845.873474	84.367712
846.013367	84.362542
846.153259	84.355623
846.293091	84.352711
846.432983	84.351768
846.572815	84.352719
846.712646	84.354376
846.852478	84.357501
846.992310	84.365965
847.132141	84.372915
847.271912	84.384980
847.411743	84.396898
847.551514	84.409809
847.691284	84.423431
847.831055	84.435821
847.970764	84.447165
848.110535	84.459264
848.250244	84.469712
848.389954	84.480980
848.529663	84.491014
848.669373	84.501304
848.809082	84.509157
848.948730	84.517681
849.088440	84.524694
849.228088	84.535333
849.367737	84.543602
849.507385	84.553743
849.646973	84.565230
849.786621	84.571837
849.926208	84.580417
850.065796	84.583389
850.205383	84.586724
850.344971	84.591544
850.484558	84.596577
850.624084	84.603417
850.763611	84.607155
850.903198	84.612973
851.042725	84.620705
851.182190	84.629267
851.321716	84.640741
851.461182	84.652363
851.600708	84.664262
851.740173	84.678050
851.879639	84.691478
852.019104	84.700951
852.158508	84.710174
852.297974	84.716702
852.437378	84.721901
852.576782	84.728403
852.716187	84.733798
852.855591	84.738098
852.994934	84.742280
853.134338	84.745225
853.273682	84.748102
853.413025	84.749713
853.552368	84.754631
853.691711	84.758329
853.830994	84.760892
853.970337	84.759729
854.109619	84.758678
854.248901	84.756627
854.388184	84.752044
854.527466	84.745391
854.666687	84.737611
854.805969	84.728013
854.945190	84.720669
855.084412	84.710730
855.223633	84.701458
855.362854	84.692793
855.502014	84.684598
855.641235	84.678696
855.780396	84.674052
855.919556	84.667847
856.058716	84.659243
856.197876	84.649888
856.336975	84.640885
856.476135	84.631849
856.615234	84.624627
856.754333	84.620171
856.893433	84.613836
857.032471	84.608749
857.171570	84.604447
857.310608	84.598346
857.449646	84.590229
857.588745	84.585293
857.727722	84.579735
857.866760	84.577228
858.005798	84.573338
858.144775	84.567024
858.283752	84.560954
858.422729	84.555289
858.561707	84.547782
858.700684	84.542070
858.839600	84.537352
858.978516	84.533812
859.117493	84.526815
859.256409	84.519983
859.395264	84.513381
859.534180	84.507075
859.673096	84.501128
859.811951	84.495606
859.950806	84.490575
860.089661	84.486099
860.228516	84.482244
860.367310	84.479073
860.506165	84.476653
860.644958	84.475049
860.783752	84.474325
860.922546	84.474546
861.061340	84.475779
861.200134	84.478086
861.338867	84.481535
861.477600	84.486189
861.616333	84.492114
